nu(Mhz) 215.0K

19.998 0.39242
14.763 0.51774
10.898 0.67463
8.0458 0.98809
8.0458 0.94749
5.9361 1.314
4.3836 1.8298
3.2358 2.7348
2.3882 3.9137
1.763 5.7009
1.3007 9.1716
0.961 11.213
0.70834 18.516
0.5237 26.184
0.38646 37.64
0.28514 50.948
0.21074 76.505
0.15564 115.05
0.11473 172.42
0.084624 225.52
0.062626 273.16
0.045963 359.23
0.033894 609.36
0.025154 656.79
0.018573 630.15
0.010084 411.58
