nu(Mhz) 224.8K

19.998 0.81182
16.457 1.0059
13.546 1.2738
11.146 1.6241
9.1723 2.0171
7.5474 2.6236
7.5474 2.5055
6.2111 3.2662
5.1125 4.2328
4.2053 5.254
3.4603 6.7325
2.8495 8.9952
2.3441 11.432
1.9298 14.317
1.5877 19.095
1.3062 24.719
1.0751 32.005
0.88446 41.894
0.7286 54.627
0.5989 71.801
0.49302 90.787
0.40551 119.23
0.33388 157.93
0.27502 202.79
0.22639 262.36
0.18591 343.13
0.15313 450.68
0.12579 564.9
