nu(Mhz) 255.0K

19.998 14.289
14.763 20.676
10.898 30.986
10.898 30.103
8.0458 45.081
5.9361 68.754
4.3836 92.591
3.2358 122.03
2.3882 159.78
1.763 206.9
1.3007 253.35
0.961 306.9
0.70834 359.89
0.5237 380.74
0.38646 423.89
0.28514 465.47
0.21074 484.92
0.15564 526.08
0.11473 521.14
0.084624 557.35
0.062626 569.48
0.045963 613.94
0.033894 558.82
0.025154 630.06
0.018573 587.05
0.013725 602.02
0.010084 622.77
0.007409 611.99
0.0054932 669.29
0.0040628 691.29
0.0030236 648.51
