nu(Mhz) 189.5K

19.998 18.882
15.389 20.773
11.838 23.16
9.1097 25.073
7.0099 27.591
7.0099 27.85
5.3938 29.756
4.1499 32.228
3.1929 33.868
2.4577 36.022
1.8901 37.651
1.4541 39.166
1.1185 40.631
0.86064 41.672
0.66216 42.975
0.50995 43.914
0.39242 44.784
0.30154 45.413
0.2325 46.026
0.17843 46.323
0.13735 46.827
0.10574 47.529
0.081408 47.818
0.062629 48.012
0.048037 48.329
0.037198 48.525
0.028546 48.931
0.021973 48.983
0.016876 49.371
0.012989 49.576
0.0099244 49.358
